SpectraSuite Data File
++++++++++++++++++++++++++++++++++++
Date: Thu May 14 15:02:17 PDT 2015
User: schluterlab
Dark Spectrum Present: Yes
Reference Spectrum Present: Yes
Number of Sampled Component Spectra: 1
Spectrometers: USB2E3373
Integration Time (usec): 3000 (USB2E3373)
Spectra Averaged: 3 (USB2E3373)
Boxcar Smoothing: 0 (USB2E3373)
Correct for Electrical Dark: No (USB2E3373)
Strobe/Lamp Enabled: No (USB2E3373)
Correct for Detector Non-linearity: No (USB2E3373)
Correct for Stray Light: No (USB2E3373)
Number of Pixels in Processed Spectrum: 2048
>>>>>Begin Processed Spectral Data<<<<<
178.53	0.000
178.91	400.000
179.29	-2900.000
179.67	-2800.000
180.04	228.571
180.42	220.000
180.80	440.000
181.18	-2000.000
181.56	-1500.000
181.94	750.000
182.31	-475.000
182.69	900.000
183.07	-1050.000
183.45	800.000
183.83	-333.333
184.20	-266.667
184.58	2500.000
184.96	-625.000
185.34	-255.556
185.72	-340.000
186.09	411.111
186.47	1200.000
186.85	560.000
187.23	-255.556
187.61	-2700.000
187.98	520.000
188.36	775.000
188.74	-325.000
189.12	-733.333
189.49	-125.000
189.87	-350.000
190.25	-222.222
190.63	-340.000
191.00	-322.222
191.38	0.000
191.76	-800.000
192.14	-466.667
192.51	1050.000
192.89	-300.000
193.27	0.000
193.65	-342.857
194.02	-2300.000
194.40	-371.429
194.78	328.571
195.15	0.000
195.53	-136.364
195.91	0.000
196.29	-375.000
196.66	-184.615
197.04	-2900.000
197.42	-385.714
197.79	-1200.000
198.17	-375.000
198.55	-357.143
198.92	-222.222
199.30	-300.000
199.68	-163.636
200.05	-178.571
200.43	-1550.000
200.81	400.000
201.18	0.000
201.56	322.222
201.94	0.000
202.31	1000.000
202.69	-311.111
203.07	2200.000
203.44	-311.111
203.82	-675.000
204.19	-133.333
204.57	-400.000
204.95	-312.500
205.32	-3100.000
205.70	675.000
206.08	-283.333
206.45	-316.667
206.83	580.000
207.20	-383.333
207.58	-580.000
207.96	-400.000
208.33	-266.667
208.71	225.000
209.08	-316.667
209.46	0.000
209.84	383.333
210.21	1250.000
210.59	1350.000
210.96	700.000
211.34	-350.000
211.71	-312.500
212.09	-2600.000
212.46	0.000
212.84	1900.000
213.22	-600.000
213.59	-575.000
213.97	-140.000
214.34	-566.667
214.72	633.333
215.09	-800.000
215.47	0.000
215.84	385.714
216.22	1600.000
216.59	-440.000
216.97	-460.000
217.34	-475.000
217.72	-237.500
218.09	-675.000
218.47	-850.000
218.84	0.000
219.22	600.000
219.59	-111.765
219.97	-35.000
220.34	1500.000
220.72	-355.556
221.09	-146.154
221.47	-766.667
221.84	-260.000
222.22	-328.571
222.59	0.000
222.97	-262.500
223.34	-720.000
223.72	-2500.000
224.09	-500.000
224.46	-525.000
224.84	-260.000
225.21	-371.429
225.59	-675.000
225.96	-575.000
226.34	-65.385
226.71	650.000
227.08	-1200.000
227.46	-140.000
227.83	-550.000
228.21	-78.947
228.58	375.000
228.95	1450.000
229.33	-150.000
229.70	-300.000
230.08	-68.421
230.45	300.000
230.82	-666.667
231.20	-157.143
231.57	-133.333
231.95	-227.273
232.32	-172.727
232.69	-95.000
233.07	-500.000
233.44	-152.941
233.81	-300.000
234.19	-116.667
234.56	-68.182
234.93	-55.172
235.31	-131.579
235.68	-111.111
236.05	-125.000
236.43	-42.308
236.80	-60.000
237.17	-51.852
237.55	-45.455
237.92	-360.000
238.29	-64.516
238.67	-22.727
239.04	-61.111
239.41	-30.952
239.79	-30.435
240.16	-46.296
240.53	-36.957
240.91	-62.745
241.28	-39.344
241.65	-16.418
242.02	-4.054
242.40	-32.308
242.77	-22.667
243.14	-31.707
243.51	-44.737
243.89	-32.051
244.26	-16.832
244.63	-15.686
245.00	-14.953
245.38	-21.930
245.75	-26.549
246.12	-11.111
246.49	-17.829
246.87	-11.429
247.24	-6.623
247.61	-3.947
247.98	-8.054
248.36	-9.259
248.73	-11.656
249.10	-3.825
249.47	-1.990
249.84	-3.141
250.22	-6.736
250.59	-9.444
250.96	-8.636
251.33	-10.714
251.70	-3.846
252.08	-2.500
252.45	3.279
252.82	-0.413
253.19	-7.031
253.56	-6.464
253.94	-11.923
254.31	-1.894
254.68	0.699
255.05	0.326
255.42	-4.082
255.79	-2.265
256.16	-0.662
256.54	-4.305
256.91	-3.607
257.28	-5.902
257.65	-6.369
258.02	-3.245
258.39	0.000
258.76	0.306
259.14	1.437
259.51	-3.170
259.88	-6.516
260.25	-1.389
260.62	0.274
260.99	2.459
261.36	0.000
261.73	-3.714
262.10	-2.473
262.47	-1.340
262.85	0.758
263.22	-3.377
263.59	-5.263
263.96	-2.046
264.33	-3.325
264.70	-2.222
265.07	1.193
265.44	2.494
265.81	-1.157
266.18	-2.041
266.55	-0.223
266.92	-2.733
267.29	-1.094
267.66	-1.330
268.03	-1.310
268.40	0.418
268.77	-1.822
269.14	-2.203
269.51	0.439
269.88	0.000
270.25	1.610
270.62	-0.422
270.99	1.616
271.36	3.366
271.73	-1.768
272.10	1.603
272.47	-0.401
272.84	-0.602
273.21	0.000
273.58	1.008
273.95	0.000
274.32	-1.521
274.69	-2.128
275.06	0.000
275.43	-0.370
275.80	2.293
276.17	0.185
276.54	0.373
276.91	0.000
277.28	1.989
277.65	0.359
278.02	0.000
278.39	1.449
278.76	-0.176
279.13	0.000
279.50	2.062
279.87	1.789
280.23	-1.408
280.60	-0.169
280.97	1.151
281.34	-2.207
281.71	0.338
282.08	0.332
282.45	0.000
282.82	-0.785
283.19	0.969
283.56	0.820
283.92	2.102
284.29	2.370
284.66	2.956
285.03	0.962
285.40	-0.309
285.77	-1.238
286.14	0.916
286.51	0.609
286.87	-0.632
287.24	1.205
287.61	-0.149
287.98	0.755
288.35	0.444
288.72	0.148
289.08	1.757
289.45	-0.740
289.82	0.000
290.19	0.000
290.56	2.113
290.93	1.569
291.29	1.377
291.66	1.928
292.03	1.221
292.40	1.088
292.77	0.943
293.13	1.624
293.50	0.394
293.87	1.879
294.24	1.600
294.60	3.413
294.97	-0.805
295.34	2.305
295.71	0.252
296.08	0.129
296.44	0.735
296.81	0.731
297.18	1.370
297.55	1.297
297.91	0.119
298.28	0.355
298.65	2.616
299.02	-0.118
299.38	2.975
299.75	1.402
300.12	1.389
300.48	1.613
300.85	2.587
301.22	2.796
301.59	0.228
301.95	1.469
302.32	1.778
302.69	0.876
303.05	2.394
303.42	1.885
303.79	1.979
304.15	1.367
304.52	1.797
304.89	1.466
305.25	2.484
305.62	1.463
305.99	2.268
306.35	1.109
306.72	2.172
307.09	0.609
307.45	1.346
307.82	1.211
308.19	1.009
308.55	1.350
308.92	1.363
309.29	1.437
309.65	1.267
310.02	1.485
310.38	1.673
310.75	1.942
311.12	1.438
311.48	1.271
311.85	1.235
312.22	0.949
312.58	1.221
312.95	0.860
313.31	2.078
313.68	2.473
314.05	1.897
314.41	2.095
314.78	1.726
315.14	1.452
315.51	1.939
315.87	2.610
316.24	2.648
316.61	2.309
316.97	0.271
317.34	1.235
317.70	1.485
318.07	2.646
318.43	2.806
318.80	3.763
319.16	2.060
319.53	1.200
319.89	0.789
320.26	1.779
320.62	1.684
320.99	2.031
321.35	0.555
321.72	2.419
322.08	1.533
322.45	2.439
322.81	2.527
323.18	1.681
323.54	1.121
323.91	1.779
324.27	2.324
324.64	2.267
325.00	2.239
325.37	2.539
325.73	1.653
326.10	2.433
326.46	2.443
326.83	3.042
327.19	2.835
327.56	2.609
327.92	2.203
328.29	2.016
328.65	1.089
329.01	2.200
329.38	2.443
329.74	2.654
330.11	2.740
330.47	2.022
330.84	3.273
331.20	2.000
331.56	1.820
331.93	3.096
332.29	3.051
332.66	2.658
333.02	1.675
333.38	2.013
333.75	1.852
334.11	2.168
334.48	2.970
334.84	2.209
335.20	1.679
335.57	2.277
335.93	2.645
336.29	2.246
336.66	2.187
337.02	2.174
337.38	2.296
337.75	0.992
338.11	1.514
338.47	1.820
338.84	1.777
339.20	1.685
339.56	2.389
339.93	1.888
340.29	2.013
340.65	1.379
341.02	2.634
341.38	2.749
341.74	1.856
342.11	2.735
342.47	1.906
342.83	2.979
343.20	2.371
343.56	2.085
343.92	1.761
344.28	2.187
344.65	2.791
345.01	2.652
345.37	3.110
345.73	1.871
346.10	2.106
346.46	2.136
346.82	3.146
347.19	2.979
347.55	3.718
347.91	2.972
348.27	1.593
348.63	2.361
349.00	2.535
349.36	2.751
349.72	2.827
350.08	3.120
350.45	1.673
350.81	2.489
351.17	1.729
351.53	2.047
351.89	2.733
352.26	1.642
352.62	2.537
352.98	2.137
353.34	2.465
353.70	2.157
354.07	2.757
354.43	1.595
354.79	1.421
355.15	2.134
355.51	3.655
355.87	1.720
356.24	1.901
356.60	2.439
356.96	2.298
357.32	2.156
357.68	1.757
358.04	1.796
358.40	1.866
358.77	2.339
359.13	1.551
359.49	1.413
359.85	2.248
360.21	2.439
360.57	2.800
360.93	1.975
361.29	1.965
361.66	2.172
362.02	3.479
362.38	2.881
362.74	1.955
363.10	2.889
363.46	2.562
363.82	2.202
364.18	2.111
364.54	2.697
364.90	2.609
365.26	1.793
365.62	2.533
365.98	2.314
366.35	2.416
366.71	2.857
367.07	2.165
367.43	2.561
367.79	1.924
368.15	3.211
368.51	2.233
368.87	2.874
369.23	2.467
369.59	1.571
369.95	2.096
370.31	2.498
370.67	1.994
371.03	2.493
371.39	2.149
371.75	2.201
372.11	2.100
372.47	2.099
372.83	3.272
373.19	2.735
373.55	2.439
373.91	1.977
374.27	3.299
374.63	2.097
374.99	1.658
375.35	2.857
375.71	2.452
376.07	2.711
376.42	2.582
376.78	3.170
377.14	3.306
377.50	2.087
377.86	3.448
378.22	2.934
378.58	2.794
378.94	2.289
379.30	1.757
379.66	2.587
380.02	2.770
380.38	2.592
380.74	3.099
381.09	2.381
381.45	2.784
381.81	3.044
382.17	3.088
382.53	2.690
382.89	3.273
383.25	2.345
383.61	2.431
383.97	2.650
384.32	2.632
384.68	2.262
385.04	2.950
385.40	2.711
385.76	3.048
386.12	2.873
386.48	3.176
386.83	3.159
387.19	2.202
387.55	1.878
387.91	2.854
388.27	3.349
388.62	3.322
388.98	2.820
389.34	3.005
389.70	2.847
390.06	3.079
390.42	2.108
390.77	3.612
391.13	2.700
391.49	2.415
391.85	2.667
392.20	2.728
392.56	3.131
392.92	3.653
393.28	3.593
393.64	3.017
393.99	3.021
394.35	3.563
394.71	3.293
395.07	2.515
395.42	2.970
395.78	3.656
396.14	2.852
396.50	2.850
396.85	3.220
397.21	2.840
397.57	3.534
397.92	2.978
398.28	2.553
398.64	2.574
399.00	2.408
399.35	2.984
399.71	2.935
400.07	2.920
400.42	2.969
400.78	2.546
401.14	2.903
401.49	2.899
401.85	2.674
402.21	3.071
402.57	3.286
402.92	2.778
403.28	2.283
403.63	2.387
403.99	3.029
404.35	3.411
404.70	3.626
405.06	3.043
405.42	2.752
405.77	3.162
406.13	2.755
406.49	3.041
406.84	3.158
407.20	2.795
407.55	1.757
407.91	2.514
408.27	2.473
408.62	3.025
408.98	3.598
409.34	2.229
409.69	2.905
410.05	3.517
410.40	3.016
410.76	2.524
411.11	3.156
411.47	3.133
411.83	2.998
412.18	3.253
412.54	3.142
412.89	3.085
413.25	2.991
413.60	2.642
413.96	2.855
414.31	3.343
414.67	3.160
415.03	2.892
415.38	2.333
415.74	2.688
416.09	2.961
416.45	2.379
416.80	2.570
417.16	2.427
417.51	3.238
417.87	3.250
418.22	2.814
418.58	2.974
418.93	3.434
419.29	2.898
419.64	3.001
420.00	2.908
420.35	3.257
420.71	2.355
421.06	2.645
421.42	3.039
421.77	3.069
422.12	2.854
422.48	2.816
422.83	3.067
423.19	2.387
423.54	2.655
423.90	2.871
424.25	3.093
424.61	1.780
424.96	2.691
425.31	2.919
425.67	2.791
426.02	2.103
426.38	2.468
426.73	2.455
427.09	3.749
427.44	2.512
427.79	2.266
428.15	2.797
428.50	2.247
428.85	2.985
429.21	3.404
429.56	2.863
429.92	3.292
430.27	3.036
430.62	3.127
430.98	3.443
431.33	3.030
431.68	2.586
432.04	2.692
432.39	2.303
432.74	2.568
433.10	2.704
433.45	2.564
433.80	3.165
434.16	3.099
434.51	2.672
434.86	2.334
435.22	3.348
435.57	3.302
435.92	2.838
436.28	2.389
436.63	2.348
436.98	3.113
437.34	2.762
437.69	2.256
438.04	3.014
438.39	2.872
438.75	2.269
439.10	3.066
439.45	2.907
439.81	3.107
440.16	2.895
440.51	3.289
440.86	2.946
441.22	3.055
441.57	2.411
441.92	3.249
442.27	3.182
442.63	2.583
442.98	3.148
443.33	3.051
443.68	4.113
444.03	3.198
444.39	3.560
444.74	3.267
445.09	3.193
445.44	3.688
445.79	3.209
446.15	3.237
446.50	2.997
446.85	3.696
447.20	3.530
447.55	3.190
447.91	2.513
448.26	3.171
448.61	2.710
448.96	4.292
449.31	2.863
449.66	3.105
450.02	2.954
450.37	3.570
450.72	3.391
451.07	2.677
451.42	2.831
451.77	3.168
452.12	2.652
452.47	2.317
452.83	3.041
453.18	2.919
453.53	2.757
453.88	3.534
454.23	2.938
454.58	3.134
454.93	2.791
455.28	2.950
455.63	3.582
455.98	2.514
456.34	3.298
456.69	3.292
457.04	3.310
457.39	2.384
457.74	3.188
458.09	2.252
458.44	3.610
458.79	2.888
459.14	3.933
459.49	3.226
459.84	3.200
460.19	3.387
460.54	3.464
460.89	3.176
461.24	2.586
461.59	3.320
461.94	2.795
462.29	3.527
462.64	3.138
462.99	3.578
463.34	3.310
463.69	3.107
464.04	4.113
464.39	2.971
464.74	3.763
465.09	3.057
465.44	3.541
465.79	3.702
466.14	3.335
466.49	3.368
466.84	2.865
467.19	2.890
467.54	2.820
467.89	2.644
468.24	3.657
468.59	2.432
468.94	3.380
469.29	3.239
469.64	3.115
469.99	2.422
470.34	2.661
470.68	2.734
471.03	3.209
471.38	3.009
471.73	2.536
472.08	2.982
472.43	2.769
472.78	3.275
473.13	2.655
473.48	3.323
473.83	3.831
474.17	3.107
474.52	2.706
474.87	4.208
475.22	3.718
475.57	3.790
475.92	3.683
476.27	3.568
476.61	4.154
476.96	2.972
477.31	3.614
477.66	3.620
478.01	3.203
478.36	3.190
478.70	3.498
479.05	3.988
479.40	3.011
479.75	3.554
480.10	3.695
480.45	4.057
480.79	3.810
481.14	3.585
481.49	3.090
481.84	4.047
482.19	3.527
482.53	3.892
482.88	4.076
483.23	3.957
483.58	3.450
483.92	3.457
484.27	3.302
484.62	3.589
484.97	4.082
485.31	3.625
485.66	3.241
486.01	3.657
486.36	3.765
486.70	4.255
487.05	4.140
487.40	4.086
487.75	4.097
488.09	3.888
488.44	3.853
488.79	3.980
489.13	3.983
489.48	2.874
489.83	3.541
490.17	3.483
490.52	3.859
490.87	3.849
491.22	3.596
491.56	3.797
491.91	3.881
492.26	3.765
492.60	4.154
492.95	3.817
493.30	3.407
493.64	3.285
493.99	4.123
494.34	3.659
494.68	3.126
495.03	4.053
495.37	3.551
495.72	3.356
496.07	3.550
496.41	3.518
496.76	4.045
497.11	3.864
497.45	3.496
497.80	3.465
498.14	3.764
498.49	3.493
498.84	3.931
499.18	3.959
499.53	4.126
499.87	3.736
500.22	3.517
500.56	4.184
500.91	3.616
501.26	4.727
501.60	3.403
501.95	3.778
502.29	3.291
502.64	3.629
502.98	4.055
503.33	3.715
503.67	3.358
504.02	4.072
504.36	3.664
504.71	3.767
505.06	3.593
505.40	3.611
505.75	3.916
506.09	3.867
506.44	3.621
506.78	4.083
507.13	3.919
507.47	3.884
507.82	4.167
508.16	3.776
508.51	3.282
508.85	3.590
509.19	3.979
509.54	4.275
509.88	3.643
510.23	3.643
510.57	4.350
510.92	4.548
511.26	4.233
511.61	3.332
511.95	3.953
512.30	4.185
512.64	4.148
512.98	4.152
513.33	3.982
513.67	4.488
514.02	4.190
514.36	3.939
514.70	3.542
515.05	4.223
515.39	3.517
515.74	5.143
516.08	5.177
516.42	4.762
516.77	3.943
517.11	4.177
517.46	4.348
517.80	4.543
518.14	4.788
518.49	5.043
518.83	4.151
519.17	4.093
519.52	4.874
519.86	4.646
520.20	4.686
520.55	4.381
520.89	4.842
521.23	4.467
521.58	4.068
521.92	3.966
522.26	4.410
522.61	5.035
522.95	4.441
523.29	4.310
523.64	4.484
523.98	4.450
524.32	5.330
524.66	5.350
525.01	4.417
525.35	4.250
525.69	4.814
526.04	3.961
526.38	4.253
526.72	4.787
527.06	4.751
527.41	4.956
527.75	4.157
528.09	3.955
528.43	4.500
528.78	3.757
529.12	3.956
529.46	4.834
529.80	4.119
530.15	4.348
530.49	4.211
530.83	5.136
531.17	4.182
531.51	4.212
531.86	4.688
532.20	4.695
532.54	3.651
532.88	4.667
533.22	5.186
533.57	5.424
533.91	5.443
534.25	4.805
534.59	4.770
534.93	4.584
535.27	4.282
535.62	5.287
535.96	4.358
536.30	3.878
536.64	4.685
536.98	4.920
537.32	4.753
537.66	5.178
538.01	4.290
538.35	4.141
538.69	4.026
539.03	4.047
539.37	4.770
539.71	4.805
540.05	5.096
540.39	4.156
540.73	4.918
541.07	4.047
541.42	4.666
541.76	4.330
542.10	4.403
542.44	3.898
542.78	4.319
543.12	4.529
543.46	4.029
543.80	4.257
544.14	3.710
544.48	4.728
544.82	4.728
545.16	4.472
545.50	4.973
545.84	4.348
546.18	5.432
546.52	4.459
546.86	3.962
547.20	3.944
547.54	4.744
547.88	4.039
548.22	4.094
548.56	4.447
548.90	4.119
549.24	4.924
549.58	4.353
549.92	4.337
550.26	5.178
550.60	4.595
550.94	5.369
551.28	4.884
551.62	4.784
551.96	4.595
552.30	5.163
552.64	4.543
552.98	4.304
553.32	4.759
553.66	4.373
554.00	5.107
554.34	4.955
554.68	4.261
555.02	3.876
555.36	5.391
555.69	4.228
556.03	4.035
556.37	4.944
556.71	3.678
557.05	4.984
557.39	4.048
557.73	4.425
558.07	3.841
558.41	5.183
558.75	4.260
559.08	4.941
559.42	3.429
559.76	4.478
560.10	4.956
560.44	4.222
560.78	4.188
561.12	5.049
561.45	4.380
561.79	4.945
562.13	5.052
562.47	4.747
562.81	4.051
563.15	3.914
563.48	4.599
563.82	4.414
564.16	3.998
564.50	3.814
564.84	4.425
565.17	4.471
565.51	4.430
565.85	4.038
566.19	4.205
566.52	4.447
566.86	4.697
567.20	4.840
567.54	4.089
567.88	4.791
568.21	4.496
568.55	4.412
568.89	4.448
569.23	4.816
569.56	4.807
569.90	4.669
570.24	4.519
570.57	4.554
570.91	4.440
571.25	5.062
571.59	4.704
571.92	4.851
572.26	5.082
572.60	4.532
572.93	4.787
573.27	4.552
573.61	4.711
573.95	4.928
574.28	4.719
574.62	4.661
574.96	4.588
575.29	4.406
575.63	4.736
575.97	4.647
576.30	5.083
576.64	4.295
576.98	4.601
577.31	5.234
577.65	4.726
577.98	4.857
578.32	4.762
578.66	4.919
578.99	4.546
579.33	4.602
579.67	4.714
580.00	4.945
580.34	4.908
580.67	4.634
581.01	4.305
581.35	4.578
581.68	4.898
582.02	4.837
582.35	5.031
582.69	4.704
583.02	4.934
583.36	4.785
583.70	4.431
584.03	4.248
584.37	4.764
584.70	4.450
585.04	4.604
585.37	4.728
585.71	4.790
586.04	4.734
586.38	4.712
586.72	4.161
587.05	4.579
587.39	4.712
587.72	4.378
588.06	4.715
588.39	4.879
588.73	4.603
589.06	5.192
589.40	4.364
589.73	4.531
590.07	4.775
590.40	4.936
590.73	4.737
591.07	4.728
591.40	4.860
591.74	4.372
592.07	5.197
592.41	4.416
592.74	4.757
593.08	4.841
593.41	5.220
593.75	5.115
594.08	4.847
594.41	4.647
594.75	4.218
595.08	4.240
595.42	4.805
595.75	4.747
596.09	4.914
596.42	4.550
596.75	4.631
597.09	4.768
597.42	4.609
597.75	4.782
598.09	5.040
598.42	5.187
598.76	4.509
599.09	4.664
599.42	4.827
599.76	4.919
600.09	4.938
600.42	4.872
600.76	4.888
601.09	4.514
601.42	4.566
601.76	4.517
602.09	4.360
602.42	4.471
602.76	4.760
603.09	4.442
603.42	4.841
603.76	4.651
604.09	5.358
604.42	4.587
604.76	4.756
605.09	5.185
605.42	4.625
605.75	4.308
606.09	4.031
606.42	4.013
606.75	4.348
607.09	4.416
607.42	5.087
607.75	4.963
608.08	4.420
608.42	4.152
608.75	4.643
609.08	4.414
609.41	4.588
609.75	4.509
610.08	4.837
610.41	4.588
610.74	4.328
611.07	4.440
611.41	4.978
611.74	4.434
612.07	4.722
612.40	4.183
612.73	4.499
613.07	4.450
613.40	5.005
613.73	4.718
614.06	5.152
614.39	4.470
614.72	4.803
615.06	5.197
615.39	5.027
615.72	4.692
616.05	5.342
616.38	4.188
616.71	4.441
617.05	4.153
617.38	5.136
617.71	4.590
618.04	4.209
618.37	4.262
618.70	4.808
619.03	3.823
619.36	4.747
619.69	4.676
620.03	4.331
620.36	4.785
620.69	4.195
621.02	4.199
621.35	4.427
621.68	4.555
622.01	4.199
622.34	4.114
622.67	3.436
623.00	3.171
623.33	4.579
623.66	4.150
623.99	4.082
624.32	5.588
624.65	3.925
624.99	4.291
625.32	4.833
625.65	5.260
625.98	4.475
626.31	4.181
626.64	4.029
626.97	4.201
627.30	3.948
627.63	4.201
627.96	5.180
628.29	4.591
628.62	3.610
628.95	3.944
629.28	3.398
629.61	4.714
629.94	3.766
630.26	4.153
630.59	4.059
630.92	3.550
631.25	4.651
631.58	3.202
631.91	4.405
632.24	4.323
632.57	3.416
632.90	2.808
633.23	3.980
633.56	4.286
633.89	3.099
634.22	3.742
634.55	3.549
634.88	3.030
635.20	4.952
635.53	4.407
635.86	4.225
636.19	6.045
636.52	5.063
636.85	3.371
637.18	4.990
637.51	3.548
637.83	5.537
638.16	4.839
638.49	3.638
638.82	4.510
639.15	3.436
639.48	3.926
639.81	4.157
640.13	4.829
640.46	1.697
640.79	3.186
641.12	3.851
641.45	3.513
641.77	5.648
642.10	3.150
642.43	4.388
642.76	3.930
643.09	3.014
643.41	2.521
643.74	3.862
644.07	3.862
644.40	2.405
644.73	2.903
645.05	3.231
645.38	3.165
645.71	3.519
646.04	5.022
646.36	2.336
646.69	3.528
647.02	3.976
647.35	2.901
647.67	3.865
648.00	2.548
648.33	4.805
648.66	2.996
648.98	2.993
649.31	3.789
649.64	3.718
649.96	4.244
650.29	0.695
650.62	3.678
650.94	2.853
651.27	2.994
651.60	2.339
651.92	1.824
652.25	1.447
652.58	3.576
652.90	1.890
653.23	3.521
653.56	2.853
653.88	4.916
654.21	3.239
654.54	2.601
654.86	3.683
655.19	3.137
655.52	4.789
655.84	4.847
656.17	5.514
656.49	7.894
656.82	8.679
657.15	6.900
657.47	5.207
657.80	3.876
658.13	3.019
658.45	3.776
658.78	4.454
659.10	4.239
659.43	4.219
659.75	3.486
660.08	3.249
660.41	2.564
660.73	3.535
661.06	2.496
661.38	3.987
661.71	3.448
662.03	2.822
662.36	4.830
662.68	2.439
663.01	3.186
663.33	1.512
663.66	3.297
663.98	1.538
664.31	1.126
664.63	1.927
664.96	2.178
665.28	2.178
665.61	4.720
665.93	1.607
666.26	3.047
666.58	1.107
666.91	4.486
667.23	3.238
667.56	3.156
667.88	2.600
668.21	1.953
668.53	1.158
668.86	1.965
669.18	-0.407
669.50	1.193
669.83	1.600
670.15	2.756
670.48	2.778
670.80	2.294
671.13	0.945
671.45	1.181
671.77	3.013
672.10	2.000
672.42	2.265
672.75	2.151
673.07	1.642
673.39	0.924
673.72	2.181
674.04	2.241
674.37	2.504
674.69	2.822
675.01	4.381
675.34	1.145
675.66	2.622
675.98	2.239
676.31	2.539
676.63	3.232
676.95	3.640
677.28	2.621
677.60	1.969
677.92	2.111
678.25	4.205
678.57	1.068
678.89	3.242
679.22	3.484
679.54	1.880
679.86	2.203
680.18	1.658
680.51	2.044
680.83	3.764
681.15	0.345
681.48	3.627
681.80	4.145
682.12	1.573
682.44	3.339
682.77	2.837
683.09	0.379
683.41	4.264
683.73	3.605
684.06	2.030
684.38	0.358
684.70	1.436
685.02	1.549
685.34	1.498
685.67	3.312
685.99	3.067
686.31	1.599
686.63	2.370
686.96	3.943
687.28	1.954
687.60	1.010
687.92	1.447
688.24	3.506
688.56	1.897
688.89	2.178
689.21	2.544
689.53	-0.784
689.85	0.197
690.17	2.593
690.49	-0.598
690.82	-1.386
691.14	-0.202
691.46	2.677
691.78	3.499
692.10	1.468
692.42	1.786
692.74	2.541
693.06	-1.296
693.39	0.759
693.71	2.820
694.03	4.275
694.35	2.286
694.67	2.875
694.99	-0.213
695.31	1.766
695.63	-0.433
695.95	0.621
696.27	0.440
696.59	2.212
696.91	1.802
697.23	3.956
697.56	0.000
697.88	0.947
698.20	2.825
698.52	4.924
698.84	-0.624
699.16	2.653
699.48	1.464
699.80	2.340
700.12	1.965
700.44	1.382
700.76	2.375
701.08	2.179
701.40	1.554
701.72	1.990
702.04	-0.802
702.36	1.047
702.68	0.733
703.00	0.000
703.32	0.493
703.64	0.000
703.96	1.671
704.28	-0.491
704.60	2.785
704.91	0.765
705.23	1.096
705.55	2.507
705.87	0.303
706.19	2.761
706.51	-1.506
706.83	0.000
707.15	-1.852
707.47	2.336
707.79	1.747
708.11	-0.847
708.43	-1.075
708.74	-0.670
709.06	0.464
709.38	3.052
709.70	0.993
710.02	2.067
710.34	-2.128
710.66	-2.793
710.98	0.273
711.29	-0.549
711.61	-2.825
711.93	0.285
712.25	-0.270
712.57	3.835
712.89	2.647
713.20	-2.071
713.52	-0.289
713.84	-1.393
714.16	0.526
714.48	-1.546
714.80	3.896
715.11	-1.575
715.43	0.000
715.75	0.000
716.07	-2.762
716.39	0.546
716.70	-1.807
717.02	-0.984
717.34	-4.878
717.66	-0.336
717.97	-3.425
718.29	-3.093
718.61	-2.632
718.93	-0.324
719.24	-1.863
719.56	1.227
719.88	-1.201
720.20	-0.645
720.51	1.553
720.83	-1.250
721.15	-5.263
721.46	-7.192
721.78	-2.000
722.10	-2.589
722.42	-0.336
722.73	0.323
723.05	-4.211
723.37	-3.125
723.68	-0.717
724.00	1.083
724.32	-5.282
724.63	-0.699
724.95	1.064
725.27	-3.484
725.58	-3.180
725.90	-3.793
726.22	-3.135
726.53	-1.623
726.85	-0.943
727.16	1.813
727.48	1.835
727.80	0.331
728.11	-6.007
728.43	-1.347
728.74	-2.007
729.06	0.662
729.38	2.597
729.69	0.000
730.01	-0.298
730.32	-2.121
730.64	2.516
730.96	-3.727
731.27	2.793
731.59	0.000
731.90	-1.299
732.22	-1.562
732.53	-0.276
732.85	2.571
733.16	0.293
733.48	-2.439
733.80	1.114
734.11	0.285
734.43	-0.541
734.74	3.291
735.06	-0.503
735.37	-1.892
735.69	-1.622
736.00	-0.565
736.32	-2.156
736.63	0.278
736.95	-4.023
737.26	3.333
737.58	-3.636
737.89	-1.471
738.21	-4.281
738.52	-5.902
738.83	1.365
739.15	-2.837
739.46	-1.020
739.78	-1.534
740.09	-1.433
740.41	2.624
740.72	-4.667
741.04	0.324
741.35	0.000
741.66	-2.353
741.98	-1.230
742.29	-2.092
742.61	-1.754
742.92	-2.308
743.23	-1.805
743.55	0.000
743.86	-4.800
744.18	-8.678
744.49	-5.485
744.80	-0.823
745.12	-4.641
745.43	-0.407
745.74	-7.759
746.06	-2.966
746.37	0.844
746.68	1.626
747.00	-2.917
747.31	-6.438
747.62	2.308
747.94	-3.239
748.25	-6.426
748.56	-5.306
748.88	-5.983
749.19	0.862
749.50	-6.494
749.82	0.000
750.13	0.712
750.44	-5.667
750.75	-2.769
751.07	0.308
751.38	-0.631
751.69	-0.958
752.01	-1.618
752.32	-2.288
752.63	-3.741
752.94	-4.844
753.26	-4.461
753.57	-3.704
753.88	-1.498
754.19	0.965
754.51	-4.502
754.82	0.965
755.13	0.328
755.44	-3.754
755.75	-3.289
756.07	-0.299
756.38	-0.629
756.69	-0.602
757.00	-1.662
757.31	-1.913
757.63	0.767
757.94	0.235
758.25	-0.451
758.56	-0.654
758.87	3.409
759.18	-1.067
759.50	-1.133
759.81	-1.120
760.12	2.156
760.43	1.042
760.74	2.217
761.05	-2.500
761.36	-1.205
761.67	-2.030
761.99	-0.811
762.30	-2.134
762.61	-3.630
762.92	-3.358
763.23	-3.371
763.54	0.000
763.85	-4.124
764.16	0.337
764.47	-3.873
764.78	0.639
765.10	-0.293
765.41	1.538
765.72	-3.704
766.03	-0.847
766.34	-3.135
766.65	-4.530
766.96	-2.390
767.27	-3.687
767.58	-10.945
767.89	-3.846
768.20	-7.042
768.51	-6.019
768.82	-5.221
769.13	-5.303
769.44	-7.692
769.75	0.000
770.06	-5.769
770.37	-1.181
770.68	-8.511
770.99	-6.478
771.30	5.185
771.61	-1.521
771.92	-2.593
772.23	-1.215
772.54	-8.333
772.85	-3.687
773.16	-4.286
773.47	-13.757
773.78	-15.676
774.09	-6.250
774.39	0.500
774.70	-5.464
775.01	-13.415
775.32	-5.294
775.63	-8.589
775.94	-15.924
776.25	-2.581
776.56	-5.769
776.87	-8.844
777.18	-9.655
777.48	-10.490
777.79	-10.135
778.10	-11.765
778.41	-9.028
778.72	-8.276
779.03	-9.877
779.34	-4.242
779.65	-5.699
779.95	-7.222
780.26	-3.977
780.57	-8.387
780.88	-4.348
781.19	-0.645
781.50	-1.765
781.80	-0.538
782.11	-5.291
782.42	-10.101
782.73	-14.970
783.04	-7.821
783.34	-12.727
783.65	-15.686
783.96	-11.801
784.27	-7.143
784.57	-11.258
784.88	-13.571
785.19	-18.110
785.50	-11.811
785.81	-12.782
786.11	-13.846
786.42	-17.266
786.73	-15.827
787.04	-3.008
787.34	-13.934
787.65	-14.400
787.96	-13.433
788.26	-6.993
788.57	-4.895
788.88	-7.237
789.19	-5.229
789.49	-6.164
789.80	-4.965
790.11	-9.449
790.41	-14.062
790.72	-14.407
791.03	-20.388
791.33	-12.174
791.64	-6.140
791.95	-16.071
792.25	-8.571
792.56	-16.071
792.87	-20.833
793.17	-16.071
793.48	-22.917
793.79	-33.735
794.09	-15.596
794.40	-17.431
794.70	-8.844
795.01	-16.234
795.32	-12.329
795.62	-11.972
795.93	-9.848
796.23	-9.836
796.54	-16.071
796.85	-18.085
797.15	-18.478
797.46	-34.247
797.76	-23.750
798.07	-11.957
798.37	-30.928
798.68	-33.766
798.99	-13.793
799.29	-20.225
799.60	-10.638
799.90	-20.482
800.21	-24.615
800.51	-32.836
800.82	-35.294
801.12	-41.096
801.43	-42.647
801.73	-38.983
802.04	-28.788
802.34	-36.667
802.65	-25.424
802.95	-31.343
803.26	-40.678
803.56	-28.767
803.87	-18.571
804.17	-17.808
804.48	-61.404
804.78	-29.167
805.09	-43.103
805.39	-24.324
805.70	-25.352
806.00	-10.976
806.30	-20.482
806.61	-32.877
806.91	-7.692
807.22	-7.778
807.52	-33.333
807.83	-19.444
808.13	-9.639
808.43	-20.225
808.74	-26.250
809.04	-39.706
809.35	-30.667
809.65	-17.143
809.95	-16.438
810.26	-40.351
810.56	-34.483
810.86	-33.824
811.17	-28.070
811.47	-34.426
811.77	-84.444
812.08	-25.424
812.38	-36.667
812.69	-36.207
812.99	-45.283
813.29	-71.795
813.59	-40.000
813.90	-42.105
814.20	-49.091
814.50	-11.268
814.81	-6.410
815.11	-22.951
815.41	-22.388
815.72	-32.759
816.02	-25.000
816.32	-20.000
816.62	-31.818
816.93	-44.444
817.23	-25.926
817.53	-36.170
817.84	-38.095
818.14	-61.765
818.44	-36.735
818.74	-51.111
819.04	-69.231
819.35	-57.143
819.65	-115.385
819.95	-35.849
820.25	-46.667
820.56	-69.048
820.86	-68.750
821.16	-56.410
821.46	-65.116
821.76	-52.000
822.07	-28.571
822.37	-43.478
822.67	-42.553
822.97	-91.892
823.27	-55.000
823.57	-24.490
823.88	-35.556
824.18	-45.000
824.48	-86.667
824.78	-92.000
825.08	-75.758
825.38	-15.556
825.69	-23.404
825.99	-47.222
826.29	-100.000
826.59	-46.154
826.89	-58.140
827.19	-40.000
827.49	-50.000
827.79	-31.250
828.09	-81.081
828.39	-86.667
828.70	-65.854
829.00	-46.512
829.30	-89.286
829.60	-47.059
829.90	-28.261
830.20	-54.286
830.50	-58.621
830.80	-133.333
831.10	-84.615
831.40	-44.118
831.70	-114.286
832.00	-38.710
832.30	-194.118
832.60	-79.167
832.90	-261.538
833.20	-152.632
833.50	-105.000
833.80	-94.737
834.10	-166.667
834.40	-50.000
834.70	-46.875
835.00	-102.857
835.30	-67.647
835.60	-93.333
835.90	-104.000
836.20	-113.636
836.50	-72.000
836.80	-48.485
837.10	-81.481
837.40	-103.704
837.70	-168.750
838.00	-92.857
838.30	-108.696
838.60	-75.862
838.90	-164.286
839.19	-156.522
839.49	-241.667
839.79	-104.348
840.09	-175.000
840.39	-95.000
840.69	-51.613
840.99	-110.714
841.29	-140.000
841.59	-131.579
841.88	-23.077
842.18	-84.615
842.48	-300.000
842.78	-140.000
843.08	-83.333
843.38	-48.387
843.68	-133.333
843.97	-41.176
844.27	-112.500
844.57	-105.263
844.87	-210.000
845.17	-146.667
845.47	-57.143
845.76	-133.333
846.06	-288.889
846.36	-158.824
846.66	-88.462
846.96	-113.333
847.25	-141.176
847.55	-82.609
847.85	-130.000
848.15	-111.765
848.44	-218.182
848.74	-85.714
849.04	-112.500
849.34	-168.750
849.63	-78.261
849.93	1500.000
850.23	-153.333
850.53	-15.385
850.82	-145.455
851.12	-72.727
851.42	-218.182
851.71	-146.154
852.01	-110.000
852.31	-107.692
852.61	-121.053
852.90	-141.667
853.20	-105.556
853.50	-288.889
853.79	-119.048
854.09	-122.727
854.39	-291.667
854.68	-77.419
854.98	-69.231
855.28	-100.000
855.57	-92.857
855.87	-88.000
856.17	-131.818
856.46	-85.185
856.76	-155.556
857.05	-108.696
857.35	-108.333
857.65	-246.154
857.94	-85.714
858.24	-44.444
858.53	-65.217
858.83	-123.529
859.13	-100.000
859.42	-100.000
859.72	-221.429
860.01	-95.000
860.31	-277.778
860.60	-200.000
860.90	-166.667
861.20	-150.000
861.49	-169.231
861.79	-43.333
862.08	-207.692
862.38	-46.875
862.67	-117.647
862.97	-106.250
863.26	-377.778
863.56	-250.000
863.85	-245.455
864.15	-111.111
864.44	-966.667
864.74	-192.857
865.03	-125.000
865.33	-360.000
865.62	-80.645
865.92	-54.545
866.21	-95.652
866.51	-200.000
866.80	-580.000
867.10	-183.333
867.39	-250.000
867.69	4000.000
867.98	-500.000
868.27	-135.294
868.57	-3300.000
868.86	-300.000
869.16	-114.286
869.45	-87.500
869.75	-136.364
870.04	-371.429
870.33	-183.333
870.63	-471.429
870.92	-500.000
871.22	-412.500
871.51	-281.818
871.80	-1233.333
872.10	-1350.000
>>>>>End Processed Spectral Data<<<<<
