SpectraSuite Data File
++++++++++++++++++++++++++++++++++++
Date: Fri May 15 20:52:22 PDT 2015
User: schluterlab
Dark Spectrum Present: Yes
Reference Spectrum Present: Yes
Number of Sampled Component Spectra: 1
Spectrometers: USB2E3373
Integration Time (usec): 3000 (USB2E3373)
Spectra Averaged: 3 (USB2E3373)
Boxcar Smoothing: 0 (USB2E3373)
Correct for Electrical Dark: No (USB2E3373)
Strobe/Lamp Enabled: No (USB2E3373)
Correct for Detector Non-linearity: No (USB2E3373)
Correct for Stray Light: No (USB2E3373)
Number of Pixels in Processed Spectrum: 2048
>>>>>Begin Processed Spectral Data<<<<<
178.53	0.000
178.91	0.000
179.29	75.000
179.67	-950.000
180.04	-0.000
180.42	75.000
180.80	0.000
181.18	33.333
181.56	400.000
181.94	-500.000
182.31	400.000
182.69	0.000
183.07	-166.667
183.45	40.000
183.83	133.333
184.20	18.182
184.58	100.000
184.96	-0.000
185.34	233.333
185.72	-500.000
186.09	107.692
186.47	-1000.000
186.85	100.000
187.23	55.556
187.61	300.000
187.98	-33.333
188.36	55.556
188.74	-33.333
189.12	17.647
189.49	33.333
189.87	0.000
190.25	50.000
190.63	100.000
191.00	-333.333
191.38	-10.526
191.76	200.000
192.14	250.000
192.51	-100.000
192.89	-88.889
193.27	-185.714
193.65	300.000
194.02	154.545
194.40	20.000
194.78	-162.500
195.15	41.667
195.53	-112.500
195.91	225.000
196.29	-275.000
196.66	169.231
197.04	142.857
197.42	-33.333
197.79	-666.667
198.17	-38.462
198.55	900.000
198.92	-366.667
199.30	-400.000
199.68	-200.000
200.05	-466.667
200.43	0.000
200.81	-133.333
201.18	-200.000
201.56	1800.000
201.94	-400.000
202.31	-333.333
202.69	-120.000
203.07	175.000
203.44	-100.000
203.82	0.000
204.19	7.143
204.57	-533.333
204.95	200.000
205.32	-30.000
205.70	14.286
206.08	-50.000
206.45	200.000
206.83	64.286
207.20	-114.286
207.58	1200.000
207.96	-200.000
208.33	-100.000
208.71	-150.000
209.08	-266.667
209.46	-800.000
209.84	-220.000
210.21	-1700.000
210.59	-71.429
210.96	-66.667
211.34	-225.000
211.71	80.000
212.09	-242.857
212.46	-1300.000
212.84	0.000
213.22	70.000
213.59	900.000
213.97	53.846
214.34	63.636
214.72	33.333
215.09	500.000
215.47	-30.769
215.84	-27.273
216.22	0.000
216.59	-112.500
216.97	200.000
217.34	-25.000
217.72	-120.000
218.09	125.000
218.47	87.500
218.84	-700.000
219.22	-188.889
219.59	-240.000
219.97	266.667
220.34	400.000
220.72	-28.571
221.09	-50.000
221.47	-200.000
221.84	-350.000
222.22	-700.000
222.59	36.364
222.97	58.333
223.34	-366.667
223.72	-14.286
224.09	9.524
224.46	21.429
224.84	266.667
225.21	50.000
225.59	-40.000
225.96	-750.000
226.34	275.000
226.71	-114.286
227.08	-133.333
227.46	100.000
227.83	-150.000
228.21	-88.889
228.58	9.091
228.95	-62.500
229.33	70.000
229.70	-18.750
230.08	-212.500
230.45	-200.000
230.82	100.000
231.20	-53.333
231.57	-7.143
231.95	-114.286
232.32	-70.000
232.69	0.000
233.07	-66.667
233.44	0.000
233.81	10.000
234.19	-44.444
234.56	-11.765
234.93	400.000
235.31	25.000
235.68	-160.000
236.05	-130.769
236.43	-45.000
236.80	-35.294
237.17	21.875
237.55	-35.000
237.92	-51.852
238.29	-2.778
238.67	0.000
239.04	-17.647
239.41	-29.268
239.79	-23.333
240.16	-12.195
240.53	-28.947
240.91	-13.043
241.28	12.698
241.65	-16.071
242.02	6.849
242.40	-13.333
242.77	-16.949
243.14	-15.152
243.51	-7.500
243.89	9.195
244.26	-13.793
244.63	-8.333
245.00	-3.093
245.38	-4.124
245.75	-14.607
246.12	-4.310
246.49	-5.785
246.87	-1.923
247.24	-16.807
247.61	-7.018
247.98	-6.504
248.36	5.625
248.73	-3.289
249.10	-9.740
249.47	-0.633
249.84	-6.536
250.22	1.176
250.59	-7.190
250.96	2.817
251.33	-15.116
251.70	-6.471
252.08	0.000
252.45	-3.465
252.82	-7.538
253.19	1.382
253.56	-8.411
253.94	-4.054
254.31	2.174
254.68	-0.877
255.05	-1.181
255.42	-2.620
255.79	-0.772
256.16	-1.556
256.54	1.119
256.91	-4.183
257.28	-2.974
257.65	-2.622
258.02	-4.965
258.39	3.030
258.76	2.198
259.14	-0.997
259.51	-1.294
259.88	-4.124
260.25	-1.307
260.62	-1.042
260.99	-4.068
261.36	-5.479
261.73	-4.114
262.10	0.000
262.47	-1.840
262.85	-2.821
263.22	-0.615
263.59	1.869
263.96	-2.174
264.33	-2.121
264.70	0.595
265.07	-1.488
265.44	0.000
265.81	-1.977
266.18	-1.366
266.55	0.514
266.92	-1.813
267.29	-0.783
267.66	-0.256
268.03	-1.571
268.40	-1.828
268.77	0.535
269.14	-0.240
269.51	-0.771
269.88	-2.494
270.25	-2.041
270.62	-2.927
270.99	-4.604
271.36	-2.934
271.73	0.469
272.10	-2.433
272.47	-1.182
272.84	-0.990
273.21	-0.232
273.58	-0.964
273.95	0.458
274.32	-0.924
274.69	-2.036
275.06	-1.563
275.43	-0.907
275.80	-0.442
276.17	-2.299
276.54	1.927
276.91	-1.096
277.28	-1.528
277.65	0.413
278.02	0.000
278.39	-1.532
278.76	0.210
279.13	-5.394
279.50	-1.471
279.87	-0.648
280.23	-1.505
280.60	1.170
280.97	-1.212
281.34	-2.692
281.71	2.464
282.08	-3.681
282.45	-2.935
282.82	-1.737
283.19	-0.193
283.56	-2.312
283.92	-2.846
284.29	-2.500
284.66	0.194
285.03	-0.982
285.40	-0.378
285.77	-1.582
286.14	-0.542
286.51	-0.185
286.87	-1.645
287.24	-2.394
287.61	-1.058
287.98	1.228
288.35	-1.560
288.72	0.000
289.08	-1.215
289.45	0.879
289.82	-1.399
290.19	-1.195
290.56	-0.343
290.93	-0.505
291.29	-1.387
291.66	0.945
292.03	-0.478
292.40	-0.968
292.77	-1.435
293.13	-1.948
293.50	-1.973
293.87	-0.153
294.24	-0.618
294.60	0.298
294.97	-1.637
295.34	-1.380
295.71	-2.235
296.08	-1.495
296.44	-3.414
296.81	-0.694
297.18	0.000
297.55	0.678
297.91	0.685
298.28	-0.264
298.65	-1.628
299.02	-0.539
299.38	-2.326
299.75	-2.345
300.12	0.654
300.48	-0.527
300.85	1.141
301.22	0.000
301.59	-0.263
301.95	-0.127
302.32	0.649
302.69	-0.746
303.05	-0.990
303.42	0.996
303.79	1.519
304.15	1.195
304.52	0.595
304.89	-0.117
305.25	-0.363
305.62	-0.700
305.99	-0.702
306.35	-2.428
306.72	-1.237
307.09	-0.456
307.45	-0.574
307.82	-1.273
308.19	0.232
308.55	-0.545
308.92	0.654
309.29	-1.341
309.65	-0.215
310.02	-0.770
310.38	-0.220
310.75	-0.546
311.12	-0.108
311.48	-0.636
311.85	-1.466
312.22	0.000
312.58	-0.531
312.95	-0.534
313.31	-1.449
313.68	-1.152
314.05	-1.735
314.41	0.722
314.78	-0.206
315.14	0.411
315.51	0.000
315.87	-0.615
316.24	1.011
316.61	-0.492
316.97	0.000
317.34	-0.195
317.70	-0.382
318.07	-0.096
318.43	-0.490
318.80	-0.663
319.16	0.098
319.53	1.140
319.89	0.295
320.26	-0.304
320.62	0.301
320.99	-0.835
321.35	0.206
321.72	0.208
322.08	-0.101
322.45	0.508
322.81	0.196
323.18	-0.981
323.54	-1.062
323.91	-0.974
324.27	-0.098
324.64	0.843
325.00	1.004
325.37	0.459
325.73	-1.360
326.10	0.000
326.46	1.256
326.83	1.137
327.19	0.087
327.56	0.434
327.92	0.264
328.29	-0.268
328.65	-1.038
329.01	0.368
329.38	0.184
329.74	-1.228
330.11	1.112
330.47	-0.928
330.84	-0.192
331.20	0.285
331.56	-0.185
331.93	-0.091
332.29	0.550
332.66	-0.181
333.02	-0.372
333.38	-0.458
333.75	0.824
334.11	0.090
334.48	0.453
334.84	0.549
335.20	0.000
335.57	-0.816
335.93	0.090
336.29	-0.460
336.66	-0.817
337.02	-0.186
337.38	-0.648
337.75	0.636
338.11	0.541
338.47	-0.274
338.84	-0.185
339.20	-0.457
339.56	-1.284
339.93	0.627
340.29	1.101
340.65	0.717
341.02	0.000
341.38	-0.265
341.74	-0.707
342.11	-0.953
342.47	0.178
342.83	-0.433
343.20	-0.523
343.56	-0.261
343.92	-0.266
344.28	1.196
344.65	-0.950
345.01	-1.124
345.37	0.925
345.73	1.004
346.10	-0.086
346.46	0.084
346.82	0.573
347.19	-0.998
347.55	-0.919
347.91	0.485
348.27	0.728
348.63	-0.937
349.00	0.410
349.36	0.000
349.72	0.083
350.08	0.410
350.45	0.399
350.81	-0.415
351.17	-0.326
351.53	0.735
351.89	0.248
352.26	-0.080
352.62	-0.081
352.98	-0.080
353.34	0.081
353.70	1.133
354.07	0.403
354.43	0.240
354.79	-0.908
355.15	0.714
355.51	1.028
355.87	0.809
356.24	-0.734
356.60	-0.323
356.96	0.556
357.32	0.799
357.68	-0.235
358.04	-0.162
358.40	0.482
358.77	1.037
359.13	-0.400
359.49	0.539
359.85	0.000
360.21	0.399
360.57	0.383
360.93	0.530
361.29	-0.227
361.66	-0.392
362.02	0.227
362.38	1.142
362.74	0.227
363.10	-0.150
363.46	0.148
363.82	0.451
364.18	0.221
364.54	0.074
364.90	0.287
365.26	0.364
365.62	0.365
365.98	0.953
366.35	0.655
366.71	0.443
367.07	-0.290
367.43	0.503
367.79	0.283
368.15	0.144
368.51	0.583
368.87	-0.144
369.23	-0.505
369.59	0.583
369.95	0.880
370.31	-0.361
370.67	-0.448
371.03	-0.075
371.39	-0.656
371.75	0.147
372.11	0.571
372.47	-0.666
372.83	0.426
373.19	0.428
373.55	0.000
373.91	0.072
374.27	0.425
374.63	-0.287
374.99	0.284
375.35	0.487
375.71	0.000
376.07	-0.772
376.42	0.136
376.78	0.403
377.14	0.677
377.50	0.398
377.86	0.535
378.22	-0.191
378.58	-0.769
378.94	0.063
379.30	0.062
379.66	0.063
380.02	0.368
380.38	-0.365
380.74	0.239
381.09	0.675
381.45	0.122
381.81	0.308
382.17	0.127
382.53	-0.250
382.89	-0.063
383.25	0.311
383.61	1.037
383.97	-0.127
384.32	0.063
384.68	-0.248
385.04	-0.123
385.40	-0.747
385.76	0.252
386.12	0.259
386.48	-0.192
386.83	0.127
387.19	0.061
387.55	-0.063
387.91	0.061
388.27	-0.366
388.62	0.063
388.98	0.184
389.34	0.250
389.70	0.373
390.06	0.566
390.42	-0.194
390.77	-0.065
391.13	-0.315
391.49	-0.194
391.85	-0.260
392.20	-0.188
392.56	-0.318
392.92	1.233
393.28	0.000
393.64	-0.060
393.99	0.627
394.35	-0.696
394.71	0.511
395.07	0.126
395.42	-0.061
395.78	-0.847
396.14	-0.189
396.50	0.000
396.85	0.580
397.21	0.627
397.57	-0.188
397.92	0.240
398.28	-0.115
398.64	-0.181
399.00	0.564
399.35	0.056
399.71	0.574
400.07	0.665
400.42	-0.061
400.78	1.225
401.14	0.484
401.49	0.655
401.85	0.122
402.21	0.301
402.57	0.000
402.92	-1.066
403.28	0.877
403.63	-0.126
403.99	-0.255
404.35	0.250
404.70	-0.238
405.06	0.059
405.42	0.497
405.77	-0.755
406.13	0.000
406.49	0.118
406.84	-0.672
407.20	0.241
407.55	-0.644
407.91	0.267
408.27	-0.255
408.62	0.615
408.98	-0.062
409.34	0.062
409.69	0.323
410.05	0.246
410.40	-0.062
410.76	0.784
411.11	0.312
411.47	0.066
411.83	-0.439
412.18	-0.064
412.54	0.062
412.89	-0.062
413.25	-0.361
413.60	-0.124
413.96	0.000
414.31	1.220
414.67	-0.064
415.03	0.000
415.38	0.522
415.74	-0.065
416.09	0.131
416.45	0.338
416.80	-0.397
417.16	-0.414
417.51	0.466
417.87	0.196
418.22	0.130
418.58	-0.669
418.93	1.254
419.29	-0.448
419.64	-0.130
420.00	1.071
420.35	0.776
420.71	0.486
421.06	-0.123
421.42	0.300
421.77	-0.116
422.12	-0.511
422.48	0.379
422.83	0.058
423.19	0.677
423.54	-0.529
423.90	-0.177
424.25	0.287
424.61	0.122
424.96	0.581
425.31	0.000
425.67	-0.117
426.02	0.294
426.38	-0.188
426.73	0.545
427.09	0.380
427.44	0.765
427.79	0.295
428.15	0.850
428.50	-0.606
428.85	-0.737
429.21	0.396
429.56	0.000
429.92	1.027
430.27	0.100
430.62	-0.627
430.98	0.265
431.33	0.578
431.68	-0.366
432.04	0.000
432.39	-0.228
432.74	-0.782
433.10	0.575
433.45	0.000
433.80	-0.232
434.16	-0.499
434.51	0.430
434.86	-0.290
435.22	0.393
435.57	0.374
435.92	0.299
436.28	0.358
436.63	0.171
436.98	-0.290
437.34	0.000
437.69	0.239
438.04	-0.114
438.39	-0.916
438.75	-1.032
439.10	0.000
439.45	0.183
439.81	0.000
440.16	-0.178
440.51	1.075
440.86	0.665
441.22	0.283
441.57	0.386
441.92	0.682
442.27	0.055
442.63	1.392
442.98	0.287
443.33	0.334
443.68	-0.159
444.03	0.447
444.39	0.394
444.74	0.334
445.09	0.056
445.44	0.057
445.79	1.031
446.15	-0.110
446.50	0.222
446.85	0.319
447.20	0.417
447.55	0.837
447.91	-0.395
448.26	0.569
448.61	0.806
448.96	0.344
449.31	0.289
449.66	0.174
450.02	0.171
450.37	0.000
450.72	-0.458
451.07	0.190
451.42	0.000
451.77	0.784
452.12	-0.239
452.47	0.193
452.83	0.353
453.18	-0.190
453.53	0.316
453.88	-0.243
454.23	0.799
454.58	1.134
454.93	0.322
455.28	-0.063
455.63	0.682
455.98	0.782
456.34	0.128
456.69	0.318
457.04	1.827
457.39	0.122
457.74	-0.181
458.09	-0.765
458.44	0.117
458.79	0.448
459.14	0.515
459.49	1.254
459.84	0.451
460.19	0.243
460.54	0.428
460.89	0.170
461.24	0.683
461.59	0.534
461.94	-0.126
462.29	0.965
462.64	0.532
462.99	0.203
463.34	0.139
463.69	-0.064
464.04	0.363
464.39	0.364
464.74	0.675
465.09	0.499
465.44	0.519
465.79	0.227
466.14	0.513
466.49	-0.288
466.84	1.190
467.19	0.814
467.54	0.192
467.89	-0.442
468.24	0.000
468.59	0.444
468.94	-0.317
469.29	0.721
469.64	1.504
469.99	0.000
470.34	-0.683
470.68	0.447
471.03	0.566
471.38	0.927
471.73	0.280
472.08	0.136
472.43	-1.141
472.78	-0.548
473.13	0.748
473.48	-0.261
473.83	0.249
474.17	0.453
474.52	0.255
474.87	0.121
475.22	-0.366
475.57	0.226
475.92	0.439
476.27	1.339
476.61	0.810
476.96	0.223
477.31	0.865
477.66	1.011
478.01	0.056
478.36	0.054
478.70	0.761
479.05	1.099
479.40	0.530
479.75	0.052
480.10	0.666
480.45	0.750
480.79	0.655
481.14	0.307
481.49	0.591
481.84	-0.097
482.19	0.281
482.53	0.528
482.88	0.811
483.23	0.048
483.58	0.472
483.92	0.000
484.27	0.091
484.62	0.448
484.97	0.705
485.31	0.253
485.66	0.591
486.01	0.589
486.36	0.551
486.70	0.559
487.05	0.581
487.40	0.259
487.75	0.394
488.09	0.309
488.44	0.103
488.79	0.261
489.13	0.721
489.48	0.299
489.83	0.448
490.17	0.494
490.52	0.185
490.87	0.370
491.22	0.334
491.56	0.237
491.91	-0.048
492.26	0.875
492.60	0.768
492.95	0.590
493.30	0.586
493.64	0.393
493.99	0.725
494.34	-0.049
494.68	0.190
495.03	0.146
495.37	0.147
495.72	0.303
496.07	0.341
496.41	0.330
496.76	0.599
497.11	0.233
497.45	0.764
497.80	0.404
498.14	0.596
498.49	0.102
498.84	0.200
499.18	0.000
499.53	0.496
499.87	-0.097
500.22	0.396
500.56	0.403
500.91	0.251
501.26	0.099
501.60	0.148
501.95	0.582
502.29	0.484
502.64	0.338
502.98	-0.296
503.33	0.048
503.67	0.482
504.02	0.782
504.36	1.385
504.71	0.152
505.06	0.000
505.40	0.711
505.75	0.464
506.09	0.811
506.44	0.616
506.78	0.918
507.13	0.052
507.47	0.261
507.82	-0.534
508.16	-0.423
508.51	0.892
508.85	-0.105
509.19	-0.160
509.54	0.375
509.88	-0.270
510.23	0.161
510.57	0.481
510.92	-0.213
511.26	-0.436
511.61	0.330
511.95	0.712
512.30	-0.111
512.64	0.779
512.98	-0.337
513.33	0.560
513.67	0.114
514.02	0.858
514.36	0.971
514.70	0.466
515.05	0.529
515.39	0.236
515.74	0.898
516.08	0.598
516.42	0.824
516.77	0.878
517.11	0.178
517.46	0.239
517.80	0.715
518.14	-0.122
518.49	0.240
518.83	0.243
519.17	-0.303
519.52	0.296
519.86	-0.120
520.20	0.668
520.55	-0.313
520.89	0.941
521.23	0.507
521.58	0.820
521.92	0.192
522.26	0.195
522.61	1.039
522.95	0.530
523.29	0.381
523.64	0.826
523.98	-0.194
524.32	-0.193
524.66	0.512
525.01	0.974
525.35	1.231
525.69	-0.202
526.04	-0.066
526.38	1.102
526.72	-1.046
527.06	0.065
527.41	0.858
527.75	-0.536
528.09	0.399
528.43	1.350
528.78	0.264
529.12	-0.194
529.46	0.000
529.80	0.823
530.15	0.198
530.49	0.067
530.83	-0.068
531.17	-0.134
531.51	-0.068
531.86	-0.612
532.20	-0.418
532.54	0.204
532.88	1.095
533.22	0.806
533.57	0.066
533.91	-0.326
534.25	0.716
534.59	0.192
534.93	0.881
535.27	-0.254
535.62	0.065
535.96	0.587
536.30	0.264
536.64	-0.276
536.98	0.139
537.32	1.067
537.66	0.912
538.01	0.629
538.35	-0.416
538.69	1.065
539.03	0.752
539.37	0.471
539.71	0.818
540.05	-0.136
540.39	1.316
540.73	0.349
541.07	0.414
541.42	1.277
541.76	0.551
542.10	0.344
542.44	-0.139
542.78	-0.551
543.12	0.343
543.46	0.974
543.80	0.625
544.14	0.267
544.48	0.466
544.82	0.547
545.16	0.956
545.50	0.734
545.84	0.425
546.18	0.496
546.52	0.360
546.86	0.288
547.20	-0.072
547.54	-0.283
547.88	0.476
548.22	0.394
548.56	0.462
548.90	0.943
549.24	0.551
549.58	0.282
549.92	0.429
550.26	0.879
550.60	0.149
550.94	0.000
551.28	0.077
551.62	-0.231
551.96	0.150
552.30	0.658
552.64	0.071
552.98	-0.141
553.32	0.285
553.66	0.000
554.00	-0.073
554.34	0.960
554.68	0.074
555.02	0.967
555.36	0.075
555.69	0.220
556.03	-0.071
556.37	-0.142
556.71	0.000
557.05	0.671
557.39	0.372
557.73	0.300
558.07	0.151
558.41	0.000
558.75	-0.779
559.08	-0.079
559.42	0.556
559.76	0.400
560.10	0.000
560.44	0.000
560.78	0.699
561.12	0.282
561.45	-0.422
561.79	0.280
562.13	0.923
562.47	-0.144
562.81	0.144
563.15	0.635
563.48	0.283
563.82	0.549
564.16	0.070
564.50	-0.541
564.84	0.535
565.17	0.604
565.51	0.205
565.85	0.549
566.19	0.597
566.52	0.335
566.86	0.321
567.20	-0.249
567.54	-0.487
567.88	-0.117
568.21	0.905
568.55	0.109
568.89	0.411
569.23	0.193
569.56	0.175
569.90	0.528
570.24	0.856
570.57	0.545
570.91	0.662
571.25	-0.033
571.59	0.467
571.92	0.504
572.26	0.121
572.60	0.527
572.93	0.722
573.27	0.564
573.61	0.268
573.95	0.464
574.28	0.477
574.62	0.534
574.96	0.474
575.29	0.454
575.63	0.492
575.97	0.190
576.30	0.337
576.64	0.318
576.98	0.644
577.31	0.246
577.65	0.505
577.98	0.507
578.32	0.542
578.66	0.473
578.99	0.608
579.33	0.075
579.67	0.631
580.00	0.532
580.34	0.746
580.67	0.371
581.01	0.384
581.35	0.732
581.68	0.649
582.02	0.404
582.35	0.353
582.69	0.448
583.02	0.662
583.36	0.568
583.70	0.753
584.03	0.250
584.37	0.678
584.70	0.742
585.04	-0.026
585.37	0.516
585.71	0.197
586.04	0.454
586.38	0.240
586.72	0.488
587.05	0.549
587.39	0.587
587.72	0.656
588.06	0.277
588.39	0.712
588.73	0.427
589.06	0.620
589.40	0.622
589.73	1.132
590.07	0.642
590.40	0.542
590.73	0.412
591.07	0.085
591.40	0.579
591.74	0.498
592.07	0.510
592.41	0.839
592.74	0.358
593.08	0.733
593.41	0.198
593.75	0.360
594.08	0.721
594.41	0.619
594.75	0.229
595.08	0.303
595.42	0.331
595.75	0.713
596.09	0.274
596.42	0.289
596.75	-0.044
597.09	0.364
597.42	-0.181
597.75	0.137
598.09	0.679
598.42	0.045
598.76	-0.043
599.09	0.681
599.42	1.250
599.76	0.828
600.09	0.867
600.42	0.834
600.76	0.260
601.09	0.153
601.42	0.431
601.76	0.397
602.09	0.825
602.42	0.590
602.76	0.255
603.09	-0.208
603.42	0.418
603.76	0.000
604.09	-0.162
604.42	0.338
604.76	1.024
605.09	0.640
605.42	0.767
605.75	0.044
606.09	0.552
606.42	0.417
606.75	1.126
607.09	0.879
607.42	0.089
607.75	0.266
608.08	0.539
608.42	0.822
608.75	0.000
609.08	0.000
609.41	0.152
609.75	0.504
610.08	0.250
610.41	0.628
610.74	0.195
611.07	0.052
611.41	0.415
611.74	1.493
612.07	0.535
612.40	0.602
612.73	-0.226
613.07	-0.337
613.40	0.547
613.73	-0.056
614.06	1.057
614.39	0.113
614.72	-0.056
615.06	0.056
615.39	0.819
615.72	0.592
616.05	-0.112
616.38	0.171
616.71	0.183
617.05	0.062
617.38	0.314
617.71	0.314
618.04	0.698
618.37	0.946
618.70	0.924
619.03	1.389
619.36	-0.434
619.69	-0.152
620.03	1.169
620.36	0.358
620.69	-0.286
621.02	0.535
621.35	0.000
621.68	0.170
622.01	-0.167
622.34	0.559
622.67	0.789
623.00	0.842
623.33	0.152
623.66	0.299
623.99	0.378
624.32	0.532
624.65	-0.226
624.99	0.677
625.32	0.076
625.65	1.100
625.98	1.048
626.31	-0.416
626.64	0.347
626.97	0.785
627.30	0.701
627.63	0.867
627.96	0.719
628.29	-0.093
628.62	0.492
628.95	0.701
629.28	-0.504
629.61	-0.698
629.94	0.489
630.26	0.198
630.59	0.832
630.92	0.718
631.25	0.308
631.58	0.220
631.91	0.219
632.24	-1.261
632.57	0.682
632.90	-1.305
633.23	1.412
633.56	-1.511
633.89	-0.740
634.22	0.247
634.55	-0.508
634.88	1.149
635.20	-1.410
635.53	-0.800
635.86	-0.520
636.19	0.776
636.52	-1.148
636.85	-1.241
637.18	-0.881
637.51	-0.126
637.83	-0.657
638.16	1.637
638.49	0.136
638.82	2.368
639.15	-0.814
639.48	0.413
639.81	0.279
640.13	-0.722
640.46	1.166
640.79	-2.946
641.12	1.329
641.45	-0.300
641.77	1.481
642.10	0.948
642.43	-1.125
642.76	-0.990
643.09	0.808
643.41	-0.971
643.74	-0.165
644.07	0.000
644.40	0.845
644.73	-1.401
645.05	1.678
645.38	-0.353
645.71	-0.532
646.04	-0.718
646.36	-0.177
646.69	2.698
647.02	-1.134
647.35	-1.119
647.67	-1.280
648.00	1.493
648.33	0.683
648.66	-0.169
648.98	-3.518
649.31	-0.992
649.64	0.471
649.96	-1.297
650.29	0.170
650.62	1.026
650.94	-0.926
651.27	-2.607
651.60	1.081
651.92	0.524
652.25	-0.710
652.58	0.500
652.90	2.230
653.23	-0.672
653.56	0.846
653.88	-2.577
654.21	-1.226
654.54	0.000
654.86	0.340
655.19	-1.170
655.52	0.619
655.84	0.708
656.17	0.664
656.49	0.793
656.82	0.911
657.15	0.605
657.47	0.554
657.80	0.341
658.13	0.306
658.45	0.199
658.78	0.418
659.10	0.196
659.43	0.217
659.75	0.148
660.08	-0.207
660.41	0.511
660.73	0.552
661.06	1.040
661.38	-0.978
661.71	-2.053
662.03	-0.429
662.36	-0.220
662.68	-1.106
663.01	0.873
663.33	-3.480
663.66	-3.488
663.98	-1.628
664.31	1.066
664.63	-2.535
664.96	-3.478
665.28	-1.104
665.61	1.515
665.93	-1.087
666.26	3.037
666.58	0.224
666.91	-1.176
667.23	0.943
667.56	-1.185
667.88	-1.679
668.21	-2.625
668.53	-0.946
668.86	-0.708
669.18	-3.302
669.50	-1.695
669.83	0.233
670.15	2.331
670.48	-0.718
670.80	0.691
671.13	0.447
671.45	-2.055
671.77	1.502
672.10	0.198
672.42	0.375
672.75	-0.178
673.07	2.683
673.39	0.000
673.72	-1.972
674.04	-1.250
674.37	0.636
674.69	-1.499
675.01	2.667
675.34	-0.450
675.66	1.389
675.98	1.552
676.31	2.294
676.63	-3.325
676.95	0.000
677.28	1.176
677.60	-1.446
677.92	0.000
678.25	0.000
678.57	-3.247
678.89	-1.261
679.22	-1.790
679.54	-1.406
679.86	-1.789
680.18	0.388
680.51	0.189
680.83	-2.584
681.15	1.400
681.48	2.459
681.80	2.893
682.12	-3.024
682.44	-0.418
682.77	1.545
683.09	-1.602
683.41	0.000
683.73	0.461
684.06	-0.664
684.38	-1.505
684.70	-0.436
685.02	-2.075
685.34	-0.593
685.67	-0.938
685.99	0.362
686.31	1.593
686.63	-1.299
686.96	-1.331
687.28	-2.828
687.60	-0.570
687.92	0.000
688.24	0.000
688.56	-0.873
688.89	-0.446
689.21	5.556
689.53	-1.160
689.85	-2.093
690.17	0.446
690.49	-0.709
690.82	-0.728
691.14	-1.190
691.46	-0.935
691.78	-1.577
692.10	1.290
692.42	-1.299
692.74	-0.641
693.06	-3.153
693.39	-2.489
693.71	-2.262
694.03	-2.771
694.35	-1.636
694.67	1.010
694.99	-1.828
695.31	0.261
695.63	1.500
695.95	-2.778
696.27	-2.850
696.59	-0.278
696.91	-0.840
697.23	-2.314
697.56	0.248
697.88	2.796
698.20	-0.228
698.52	1.647
698.84	-0.478
699.16	-0.750
699.48	0.752
699.80	-2.978
700.12	-1.617
700.44	-2.521
700.76	-3.488
701.08	-1.818
701.40	0.904
701.72	3.395
702.04	-2.310
702.36	-2.341
702.68	-0.601
703.00	-1.515
703.32	-0.587
703.64	-4.520
703.96	1.159
704.28	-3.988
704.60	0.000
704.91	-2.839
705.23	-0.332
705.55	0.353
705.87	-0.722
706.19	1.111
706.51	-2.405
706.83	-0.643
707.15	-5.607
707.47	1.401
707.79	-4.688
708.11	0.250
708.43	1.500
708.74	0.258
709.06	3.944
709.38	-1.223
709.70	1.183
710.02	-3.503
710.34	2.167
710.66	-3.526
710.98	-4.967
711.29	2.623
711.61	0.339
711.93	-0.326
712.25	2.405
712.57	-3.297
712.89	-4.478
713.20	4.152
713.52	2.091
713.84	-1.024
714.16	-3.780
714.48	-2.581
714.80	0.000
715.11	-1.520
715.43	-1.254
715.75	-4.000
716.07	-1.661
716.39	-1.007
716.70	-6.273
717.02	-3.435
717.34	2.429
717.66	0.000
717.97	-2.174
718.29	0.837
718.61	3.937
718.93	-5.039
719.24	0.000
719.56	-3.213
719.88	2.062
720.20	1.515
720.51	0.383
720.83	0.386
721.15	-1.681
721.46	-3.226
721.78	-0.395
722.10	-1.487
722.42	-5.394
722.73	0.000
723.05	2.449
723.37	3.390
723.68	1.802
724.00	0.000
724.32	0.444
724.63	-4.091
724.95	3.493
725.27	-5.991
725.58	-6.780
725.90	-3.968
726.22	0.000
726.53	5.085
726.85	0.000
727.16	3.774
727.48	-5.263
727.80	1.619
728.11	-3.814
728.43	3.137
728.74	-3.629
729.06	-2.400
729.38	5.263
729.69	-5.179
730.01	-3.846
730.32	-1.119
730.64	1.767
730.96	-2.642
731.27	1.333
731.59	-2.373
731.90	-3.503
732.22	3.470
732.53	3.322
732.85	-2.128
733.16	3.704
733.48	-5.396
733.80	-2.174
734.11	1.356
734.43	-3.093
734.74	-0.303
735.06	-4.886
735.37	3.021
735.69	-2.020
736.00	-3.833
736.32	-2.013
736.63	-2.113
736.95	2.048
737.26	1.423
737.58	-1.678
737.89	-4.762
738.21	0.752
738.52	-1.646
738.83	-1.310
739.15	-5.240
739.46	-0.394
739.78	-5.495
740.09	0.980
740.41	3.623
740.72	-3.150
741.04	-3.644
741.35	-2.979
741.66	-1.422
741.98	-2.551
742.29	0.495
742.61	-0.524
742.92	-12.322
743.23	-6.019
743.55	-3.167
743.86	-1.914
744.18	0.000
744.49	-1.596
744.80	-5.435
745.12	-2.139
745.43	-3.415
745.74	-1.042
746.06	-1.951
746.37	-4.188
746.68	1.422
747.00	-7.447
747.31	-0.995
747.62	-5.825
747.94	-0.478
748.25	-7.426
748.56	-3.825
748.88	-3.665
749.19	-2.660
749.50	0.985
749.82	-10.377
750.13	-6.422
750.44	1.504
750.75	-0.746
751.07	4.015
751.38	1.149
751.69	-2.745
752.01	0.000
752.32	-4.382
752.63	-3.557
752.94	-6.466
753.26	6.695
753.57	-1.810
753.88	-0.885
754.19	-3.750
754.51	0.000
754.82	-4.453
755.13	2.500
755.44	-1.210
755.75	1.562
756.07	0.389
756.38	0.000
756.69	-4.215
757.00	0.333
757.31	-0.654
757.63	-4.268
757.94	0.556
758.25	0.548
758.56	-1.330
758.87	-0.283
759.18	-1.558
759.50	-2.909
759.81	-2.676
760.12	-1.613
760.43	-1.212
760.74	0.309
761.05	-2.462
761.36	0.000
761.67	-0.303
761.99	1.701
762.30	-7.273
762.61	0.395
762.92	-4.977
763.23	-2.252
763.54	-9.346
763.85	-1.695
764.16	-2.490
764.47	-5.242
764.78	-0.733
765.10	2.694
765.41	1.262
765.72	-3.810
766.03	-4.135
766.34	1.095
766.65	2.789
766.96	1.515
767.27	-1.596
767.58	-0.575
767.89	-13.475
768.20	-6.818
768.51	-1.099
768.82	-0.493
769.13	1.843
769.44	-1.717
769.75	-2.740
770.06	5.172
770.37	5.769
770.68	-4.569
770.99	-1.357
771.30	-1.961
771.61	-0.905
771.92	0.431
772.23	-2.463
772.54	-1.075
772.85	0.617
773.16	-1.685
773.47	3.268
773.78	4.575
774.09	2.994
774.39	-7.333
774.70	0.000
775.01	3.448
775.32	6.429
775.63	-4.959
775.94	-5.344
776.25	-3.150
776.56	2.500
776.87	-8.654
777.18	-4.274
777.48	-1.724
777.79	-8.696
778.10	-17.143
778.41	-14.414
778.72	-2.381
779.03	0.000
779.34	3.546
779.65	4.110
779.95	-6.164
780.26	4.138
780.57	-10.569
780.88	4.724
781.19	-3.448
781.50	-11.628
781.80	-4.734
782.11	-5.660
782.42	-5.385
782.73	-2.878
783.04	-1.481
783.34	2.083
783.65	-14.530
783.96	-10.656
784.27	0.000
784.57	-4.878
784.88	5.469
785.19	0.000
785.50	8.000
785.81	-10.345
786.11	-8.621
786.42	-9.709
786.73	0.909
787.04	-9.184
787.34	-4.464
787.65	-6.667
787.96	-0.885
788.26	-4.545
788.57	-7.692
788.88	2.344
789.19	-9.524
789.49	-8.696
789.80	-11.224
790.11	-3.030
790.41	-4.545
790.72	-1.087
791.03	-5.682
791.33	0.000
791.64	-10.000
791.95	-8.140
792.25	0.000
792.56	7.865
792.87	-1.370
793.17	-26.087
793.48	-1.333
793.79	-10.000
794.09	-2.500
794.40	-0.943
794.70	0.000
795.01	-6.504
795.32	-9.402
795.62	-15.238
795.93	-2.941
796.23	7.547
796.54	0.000
796.85	0.000
797.15	1.408
797.46	13.889
797.76	4.545
798.07	-8.140
798.37	-15.789
798.68	-9.091
798.99	-17.284
799.29	-14.286
799.60	-13.043
799.90	1.333
800.21	11.475
800.51	-6.154
800.82	-5.085
801.12	-15.942
801.43	3.279
801.73	0.000
802.04	-10.000
802.34	-8.955
802.65	-13.462
802.95	-7.143
803.26	-13.462
803.56	11.765
803.87	-36.957
804.17	1.333
804.48	9.524
804.78	-18.519
805.09	-30.435
805.39	-35.556
805.70	-12.963
806.00	-28.070
806.30	7.042
806.61	17.143
806.91	-6.944
807.22	-6.579
807.52	2.667
807.83	-18.182
808.13	5.556
808.43	4.412
808.74	-4.478
809.04	-11.864
809.35	-38.462
809.65	-3.125
809.95	-62.162
810.26	-29.545
810.56	15.068
810.86	-11.905
811.17	-2.000
811.47	-24.490
811.77	-47.368
812.08	-15.909
812.38	-3.774
812.69	-22.500
812.99	-33.333
813.29	-2.632
813.59	-34.286
813.90	-27.273
814.20	-15.385
814.50	-13.462
814.81	-26.415
815.11	-44.681
815.41	3.390
815.72	-11.905
816.02	1.961
816.32	-27.083
816.62	-4.878
816.93	-35.135
817.23	-45.714
817.53	-8.333
817.84	-26.087
818.14	-19.231
818.44	-15.789
818.74	23.913
819.04	-47.500
819.35	-10.811
819.65	-17.647
819.95	-41.667
820.25	2.381
820.56	-7.500
820.86	-62.069
821.16	5.000
821.46	6.383
821.76	-12.500
822.07	11.628
822.37	-35.135
822.67	-25.000
822.97	30.952
823.27	-64.286
823.57	0.000
823.88	-59.259
824.18	3.571
824.48	-8.824
824.78	-25.806
825.08	0.000
825.38	-9.091
825.69	-79.167
825.99	-2.632
826.29	-50.000
826.59	-66.667
826.89	-66.667
827.19	-15.217
827.49	-15.000
827.79	5.714
828.09	-10.714
828.39	-21.212
828.70	13.514
829.00	-3.571
829.30	-66.667
829.60	-10.000
829.90	3.125
830.20	-26.316
830.50	0.000
830.80	-43.478
831.10	18.182
831.40	15.152
831.70	9.677
832.00	-38.095
832.30	-38.095
832.60	-66.667
832.90	13.793
833.20	-65.000
833.50	0.000
833.80	-3.704
834.10	-19.231
834.40	-9.375
834.70	-122.222
835.00	-36.842
835.30	23.077
835.60	40.000
835.90	-41.935
836.20	-22.727
836.50	32.143
836.80	-26.923
837.10	-42.857
837.40	-500.000
837.70	4.545
838.00	-109.091
838.30	-21.739
838.60	-53.846
838.90	-9.091
839.19	3.571
839.49	3.333
839.79	-7.692
840.09	-108.333
840.39	7.143
840.69	7.143
840.99	-23.077
841.29	-84.211
841.59	-70.000
841.88	-109.091
842.18	-10.000
842.48	-50.000
842.78	-120.000
843.08	3.704
843.38	-160.000
843.68	8.696
843.97	-66.667
844.27	-86.667
844.57	-45.000
844.87	-5.556
845.17	-52.381
845.47	-26.667
845.76	-4.762
846.06	35.294
846.36	-40.000
846.66	-35.714
846.96	0.000
847.25	-250.000
847.55	0.000
847.85	-62.500
848.15	-36.364
848.44	-566.667
848.74	10.000
849.04	14.815
849.34	-18.182
849.63	-116.667
849.93	-220.000
850.23	-11.111
850.53	40.000
850.82	-15.385
851.12	-77.778
851.42	26.667
851.71	-15.385
852.01	-64.286
852.31	-50.000
852.61	-136.364
852.90	-10.000
853.20	5.263
853.50	-58.333
853.79	52.174
854.09	41.667
854.39	-26.316
854.68	-62.500
854.98	-6.452
855.28	-7.692
855.57	-65.000
855.87	-5.556
856.17	0.000
856.46	-42.857
856.76	-46.667
857.05	-111.111
857.35	-4.000
857.65	-33.333
857.94	-53.846
858.24	27.586
858.53	-5.556
858.83	-11.111
859.13	4.545
859.42	-30.435
859.72	-375.000
860.01	-433.333
860.31	8.000
860.60	9.524
860.90	-133.333
861.20	-20.000
861.49	-300.000
861.79	-6.667
862.08	5.000
862.38	26.667
862.67	-480.000
862.97	-66.667
863.26	-83.333
863.56	11.111
863.85	-700.000
864.15	-22.222
864.44	-70.000
864.74	85.714
865.03	500.000
865.33	-220.000
865.62	0.000
865.92	-50.000
866.21	-50.000
866.51	-25.000
866.80	-18.182
867.10	0.000
867.39	41.667
867.69	0.000
867.98	23.077
868.27	-533.333
868.57	6.667
868.86	-11.111
869.16	-53.846
869.45	0.000
869.75	-1300.000
870.04	0.000
870.33	-142.857
870.63	9.524
870.92	566.667
871.22	-180.000
871.51	-600.000
871.80	-77.778
872.10	566.667
>>>>>End Processed Spectral Data<<<<<
